aX,aY,aZ,gX,gY,gZ
-1.053,1.557,-0.474,-500.275,-102.962,-40.809
-1.097,1.583,-0.487,-500.275,-106.153,-43.481
-1.139,1.620,-0.510,-500.275,-108.489,-45.282
-1.183,1.650,-0.518,-500.275,-111.282,-47.466
-1.323,1.755,-0.545,-500.275,-125.802,-56.931
-1.503,1.885,-0.570,-498.748,-140.702,-63.893
-1.688,1.985,-0.606,-492.473,-157.328,-66.656
-1.846,2.000,-0.677,-487.939,-172.046,-63.634
-2.000,2.000,-0.867,-484.198,-183.573,-53.115
-2.000,2.000,-0.965,-482.977,-188.656,-30.229
-2.000,2.000,-1.123,-482.580,-192.168,1.099
-2.000,2.000,-1.127,-485.389,-198.046,37.038
-2.000,2.000,-1.161,-490.122,-205.405,81.542
-2.000,2.000,-1.262,-490.427,-210.015,126.947
-2.000,2.000,-1.473,-497.420,-203.069,183.328
-2.000,2.000,-1.945,-482.412,-198.000,225.664
-2.000,1.946,-1.976,-458.534,-189.023,258.382
-2.000,1.587,-2.000,-429.450,-182.397,282.763
-2.000,1.208,-2.000,-400.672,-173.252,299.969
-2.000,0.809,-2.000,-365.557,-165.756,310.443
-2.000,0.386,-2.000,-323.817,-159.634,314.733
-2.000,-0.039,-2.000,-271.313,-155.634,313.618
-2.000,-0.460,-2.000,-206.351,-161.221,305.985
-2.000,-0.838,-2.000,-129.740,-171.878,288.000
-2.000,-1.078,-2.000,-41.237,-181.740,254.504
-2.000,-1.244,-2.000,52.198,-185.298,208.794
-2.000,-1.323,-2.000,149.527,-172.855,148.687
-1.849,-1.385,-1.925,252.000,-141.053,75.924
-1.682,-1.356,-1.392,347.756,-95.618,0.794
-1.686,-1.143,-1.047,427.389,-55.740,-68.901
-1.794,-0.771,-0.934,494.412,-19.954,-138.229
-1.876,-0.426,-0.815,500.260,1.695,-198.504
-1.910,-0.066,-0.617,500.260,9.893,-242.229
-1.886,0.249,-0.491,500.260,11.939,-273.130
-1.830,0.709,-0.328,500.260,14.427,-291.435
-1.740,1.130,-0.217,500.260,18.351,-298.687
-1.595,1.495,-0.185,500.260,22.702,-295.802
-1.417,1.784,-0.188,498.153,28.443,-283.130
-1.206,1.972,-0.201,460.046,34.733,-262.153
-1.007,2.000,-0.249,418.046,39.542,-232.672
-0.805,2.000,-0.315,377.099,40.214,-202.046
-0.618,1.990,-0.371,338.183,40.916,-170.947
-0.438,2.000,-0.368,301.695,43.878,-139.603
-0.299,2.000,-0.365,268.061,48.611,-109.924
-0.195,1.957,-0.359,238.580,56.473,-84.366
-0.126,1.781,-0.363,213.527,63.618,-61.817
-0.062,1.481,-0.404,194.702,68.076,-43.863
-0.003,1.286,-0.448,182.153,68.748,-30.092
0.025,1.117,-0.485,174.473,66.626,-19.969
0.063,0.990,-0.485,170.794,62.794,-12.137
0.057,0.847,-0.543,172.733,55.863,-6.687
0.089,0.703,-0.590,178.229,47.496,-2.565
0.108,0.606,-0.634,186.336,40.107,2.473
0.134,0.467,-0.747,196.672,31.435,7.450
0.162,0.395,-0.841,209.618,21.420,11.237
0.199,0.327,-0.922,226.260,10.626,14.519
0.231,0.300,-0.990,246.931,-0.076,17.939
0.260,0.283,-1.037,269.695,-9.466,21.832
0.265,0.241,-1.085,294.198,-17.664,25.756
0.255,0.171,-1.119,319.924,-26.458,28.504
0.245,0.133,-1.138,344.443,-35.527,29.511
0.217,0.100,-1.124,367.237,-44.290,29.298
0.177,0.067,-1.081,386.824,-51.893,27.847
0.128,0.014,-1.025,402.351,-57.847,25.847
0.071,-0.015,-0.995,414.260,-61.908,23.557
-0.014,-0.092,-0.956,424.305,-67.588,21.282
-0.069,-0.203,-0.975,433.435,-79.527,18.672
-0.104,-0.271,-0.986,442.611,-92.031,14.794
-0.118,-0.344,-0.968,451.832,-102.305,10.947
-0.123,-0.429,-0.914,463.603,-111.634,6.595
-0.149,-0.497,-0.847,476.397,-121.023,1.664
-0.177,-0.542,-0.794,489.603,-131.588,-4.580
-0.202,-0.577,-0.728,500.260,-143.282,-12.229
-0.231,-0.588,-0.696,500.260,-157.740,-20.443
-0.235,-0.583,-0.673,500.260,-172.595,-27.679
-0.239,-0.601,-0.656,500.260,-187.649,-32.489
-0.253,-0.602,-0.628,500.260,-201.099,-35.664
-0.266,-0.633,-0.599,500.260,-212.870,-37.084
-0.281,-0.696,-0.602,500.260,-224.122,-37.573
-0.290,-0.757,-0.602,500.260,-234.336,-37.740
-0.291,-0.825,-0.592,500.260,-245.328,-38.397
-0.303,-0.857,-0.576,500.260,-254.763,-39.863
-0.284,-0.907,-0.576,500.260,-263.252,-42.718
-0.246,-0.931,-0.567,500.260,-269.191,-46.580
-0.186,-0.928,-0.559,500.260,-272.550,-52.840
-0.146,-0.930,-0.557,500.260,-271.145,-61.084
-0.097,-0.937,-0.529,500.260,-265.771,-70.229
-0.064,-0.978,-0.484,500.260,-256.198,-80.565
-0.062,-0.979,-0.451,500.260,-243.191,-89.847
-0.079,-0.962,-0.375,493.038,-225.130,-100.046
-0.092,-0.943,-0.305,481.466,-205.786,-110.183
-0.105,-0.945,-0.248,468.626,-187.282,-119.282
-0.100,-0.935,-0.186,455.771,-172.244,-127.130
-0.068,-0.930,-0.103,442.641,-160.137,-132.779
-0.048,-0.892,-0.038,428.427,-148.412,-137.115
0.007,-0.860,-0.004,414.504,-138.580,-140.336
0.092,-0.820,-0.001,399.969,-129.527,-142.214
0.179,-0.771,0.008,383.298,-115.527,-144.290
0.257,-0.766,0.025,364.870,-98.565,-145.511
0.326,-0.741,0.085,343.649,-76.626,-147.924

-0.914,1.248,-0.878,-416.290,26.122,15.069
-0.958,1.273,-0.878,-416.580,25.908,14.611
-0.989,1.301,-0.883,-416.977,25.466,14.092
-0.989,1.301,-0.883,-417.344,24.977,13.695
-1.097,1.374,-0.900,-417.405,22.397,13.282
-1.242,1.465,-0.920,-416.336,16.656,14.611
-1.373,1.539,-0.949,-413.863,8.718,19.710
-1.476,1.573,-0.966,-410.305,-1.313,28.870
-1.583,1.580,-0.984,-405.557,-12.412,42.046
-1.681,1.579,-0.969,-399.038,-25.206,59.939
-1.770,1.572,-0.970,-390.855,-37.252,81.237
-1.858,1.549,-0.953,-380.977,-48.687,104.901
-1.934,1.481,-0.962,-370.122,-60.947,130.595
-2.000,1.410,-0.983,-359.649,-75.053,154.885
-2.000,1.320,-0.985,-350.748,-88.427,175.786
-2.000,1.227,-1.052,-344.412,-100.901,193.206
-2.000,1.130,-1.082,-340.015,-110.947,206.916
-2.000,1.034,-1.169,-337.939,-120.031,216.702
-2.000,0.956,-1.274,-338.137,-124.931,221.893
-2.000,0.834,-1.418,-341.359,-125.695,223.206
-1.995,0.683,-1.574,-347.206,-122.397,222.061
-1.864,0.530,-1.785,-353.053,-115.618,219.908
-1.720,0.383,-2.000,-355.634,-105.863,217.115
-1.630,0.200,-2.000,-351.740,-97.405,213.420
-1.554,-0.004,-2.000,-338.153,-90.336,209.038
-1.468,-0.267,-2.000,-309.740,-80.321,203.618
-1.479,-0.381,-2.000,-263.908,-68.321,191.557
-1.489,-0.621,-2.000,-201.282,-63.191,176.198
-1.480,-0.838,-1.885,-120.992,-61.359,154.824
-1.446,-0.992,-1.691,-31.252,-60.397,128.031
-1.387,-1.057,-1.477,64.198,-60.305,94.748
-1.327,-0.959,-1.254,155.084,-60.061,55.771
-1.292,-0.797,-1.068,237.878,-64.153,11.420
-1.256,-0.668,-0.953,308.977,-74.183,-33.908
-1.254,-0.440,-0.767,367.771,-85.664,-78.687
-1.121,-0.263,-0.764,412.702,-93.756,-116.458
-1.088,-0.013,-0.519,441.893,-101.344,-151.756
-0.920,0.338,-0.398,459.298,-106.992,-182.641
-0.771,0.602,-0.356,462.427,-110.000,-205.450
-0.588,0.858,-0.383,453.359,-110.137,-221.160
-0.384,1.099,-0.429,433.252,-104.962,-227.985
-0.176,1.277,-0.501,405.084,-96.412,-224.656
-0.004,1.404,-0.567,368.519,-81.405,-213.359
0.135,1.500,-0.690,326.260,-60.901,-194.656
0.264,1.562,-0.778,281.710,-39.008,-171.756
0.361,1.555,-0.872,236.015,-17.160,-144.977
0.414,1.510,-0.937,189.466,1.160,-115.130
0.438,1.445,-0.970,149.328,13.969,-87.802
0.442,1.338,-0.940,112.137,25.832,-60.840
0.367,1.173,-0.941,83.450,33.710,-36.061
0.307,1.060,-0.964,65.618,34.458,-14.947
0.209,0.900,-0.961,56.855,31.420,3.160
0.113,0.728,-1.011,56.183,27.053,18.473
0.010,0.608,-0.956,60.702,18.137,30.305
-0.089,0.469,-1.048,70.458,6.641,39.954
-0.173,0.383,-1.083,85.298,-8.702,47.649
-0.258,0.267,-1.100,104.229,-24.015,53.527
-0.343,0.147,-1.110,125.511,-38.672,57.725
-0.409,0.077,-1.135,147.939,-52.351,59.298
-0.503,-0.017,-1.183,171.481,-67.023,57.695
-0.583,-0.077,-1.239,194.718,-82.076,52.931
-0.637,-0.138,-1.312,217.267,-96.550,45.573
-0.684,-0.199,-1.335,239.878,-109.557,36.183
-0.713,-0.242,-1.367,261.023,-120.580,25.237
-0.714,-0.243,-1.375,281.771,-126.290,12.962
-0.706,-0.248,-1.429,301.679,-130.534,0.061
-0.694,-0.248,-1.458,319.557,-130.977,-11.221
-0.665,-0.264,-1.453,335.954,-129.344,-20.931
-0.657,-0.263,-1.457,349.160,-122.489,-28.107
-0.652,-0.273,-1.445,358.901,-113.527,-32.702
-0.662,-0.249,-1.414,365.176,-100.473,-35.985
-0.665,-0.252,-1.357,368.275,-86.748,-38.794
-0.662,-0.262,-1.315,367.802,-75.267,-42.275
-0.643,-0.268,-1.247,364.504,-65.924,-46.534
-0.624,-0.252,-1.145,357.389,-58.351,-51.634
-0.597,-0.240,-1.061,347.191,-50.611,-57.298
-0.568,-0.246,-0.985,336.275,-44.229,-63.282
-0.522,-0.243,-0.931,324.977,-38.626,-68.443
-0.487,-0.238,-0.860,314.824,-33.969,-72.336
-0.455,-0.238,-0.795,305.038,-30.382,-74.840
-0.459,-0.260,-0.753,296.412,-28.031,-76.504
-0.456,-0.280,-0.710,288.611,-27.893,-77.084
-0.462,-0.320,-0.678,281.160,-29.618,-77.237
-0.460,-0.375,-0.655,275.344,-33.267,-76.183
-0.459,-0.444,-0.638,271.008,-39.405,-73.924
-0.454,-0.507,-0.613,269.802,-47.573,-71.008
-0.433,-0.550,-0.608,270.931,-57.313,-67.542
-0.401,-0.594,-0.606,274.702,-68.168,-64.763
-0.374,-0.633,-0.594,280.305,-79.298,-63.160
-0.346,-0.675,-0.603,287.115,-90.931,-62.931
-0.308,-0.686,-0.612,294.351,-101.725,-63.863
-0.260,-0.676,-0.643,301.130,-111.832,-65.069
-0.227,-0.636,-0.674,305.893,-117.496,-66.687
-0.201,-0.627,-0.696,306.473,-118.504,-67.328
-0.178,-0.640,-0.712,303.679,-116.733,-67.405
-0.146,-0.661,-0.711,297.786,-112.733,-66.824
-0.128,-0.691,-0.718,289.695,-108.153,-65.603
-0.108,-0.719,-0.701,280.702,-103.878,-64.504
-0.068,-0.754,-0.687,270.733,-99.954,-64.443
-0.043,-0.767,-0.661,261.328,-97.176,-65.038

-0.910,1.158,-0.948,-288.458,-42.519,13.649
-0.925,1.172,-0.990,-286.824,-43.771,15.084
-0.945,1.181,-1.006,-285.237,-44.977,16.718
-0.951,1.197,-1.009,-283.695,-46.107,18.656
-1.003,1.236,-1.038,-278.504,-49.664,27.176
-1.056,1.279,-1.055,-273.008,-52.443,40.931
-1.095,1.280,-1.067,-268.504,-54.046,56.656
-1.162,1.273,-1.054,-265.603,-54.962,73.435
-1.238,1.266,-1.070,-263.893,-55.740,90.504
-1.313,1.233,-1.083,-263.496,-57.649,105.954
-1.367,1.179,-1.125,-264.855,-60.794,121.374
-1.423,1.110,-1.094,-267.282,-65.145,135.206
-1.486,1.033,-1.119,-270.092,-70.214,147.893
-1.549,0.946,-1.159,-271.847,-75.344,158.336
-1.604,0.871,-1.217,-272.382,-81.176,166.931
-1.651,0.774,-1.312,-271.786,-87.008,172.901
-1.671,0.669,-1.413,-269.985,-92.809,177.038
-1.668,0.570,-1.517,-267.267,-98.382,179.252
-1.656,0.448,-1.610,-262.382,-103.511,180.000
-1.646,0.317,-1.695,-252.840,-106.244,179.588
-1.646,0.158,-1.760,-238.275,-107.389,178.015
-1.648,-0.006,-1.814,-216.824,-105.359,174.611
-1.656,-0.158,-1.838,-188.244,-101.481,168.962
-1.640,-0.305,-1.866,-153.740,-95.527,160.168
-1.633,-0.417,-1.884,-113.740,-87.908,149.206
-1.627,-0.516,-1.880,-68.550,-80.443,135.160
-1.611,-0.552,-1.840,-22.305,-74.504,118.275
-1.607,-0.655,-1.804,28.870,-71.786,94.687
-1.564,-0.671,-1.680,81.069,-72.595,68.519
-1.529,-0.613,-1.577,129.634,-71.969,38.718
-1.447,-0.489,-1.435,177.450,-71.588,4.443
-1.378,-0.319,-1.282,215.817,-72.992,-26.153
-1.312,-0.143,-1.192,247.466,-72.595,-54.015
-1.260,0.041,-1.106,269.313,-68.931,-75.328
-1.176,0.227,-1.031,280.427,-63.481,-90.733
-1.110,0.396,-0.964,282.947,-57.405,-102.275
-1.034,0.551,-0.917,277.344,-50.779,-110.534
-0.956,0.692,-0.917,265.176,-42.916,-115.420
-0.883,0.819,-0.920,248.366,-34.519,-117.405
-0.818,0.911,-0.930,228.794,-26.061,-117.038
-0.733,0.990,-0.961,208.519,-14.977,-114.260
-0.666,1.039,-0.993,188.336,-4.351,-109.374
-0.624,1.059,-0.998,170.412,4.489,-103.084
-0.584,1.071,-1.028,154.519,12.153,-95.267
-0.570,1.051,-1.050,140.916,18.809,-87.008
-0.547,0.996,-1.050,131.496,23.328,-77.267
-0.536,0.949,-1.067,125.802,26.366,-67.053
-0.509,0.881,-1.049,124.412,27.664,-57.725
-0.488,0.836,-1.035,126.473,27.603,-48.962
-0.487,0.779,-1.031,131.160,24.855,-43.160
-0.484,0.692,-1.043,138.992,18.260,-39.496
-0.481,0.592,-1.043,149.069,8.977,-38.901
-0.466,0.498,-1.063,161.206,-2.763,-39.252
-0.440,0.433,-1.066,175.679,-14.626,-41.115
-0.402,0.370,-1.088,193.359,-27.053,-43.389
-0.372,0.320,-1.111,211.893,-38.168,-46.092
-0.333,0.280,-1.132,232.122,-48.489,-48.137
-0.295,0.263,-1.165,253.634,-58.183,-48.779
-0.269,0.256,-1.203,274.321,-66.198,-48.000
-0.233,0.243,-1.234,293.756,-72.580,-45.710
-0.218,0.208,-1.241,310.504,-77.817,-42.641
-0.200,0.165,-1.233,324.672,-82.122,-39.252
-0.184,0.116,-1.231,335.618,-84.443,-35.710
-0.165,0.070,-1.220,343.008,-85.634,-32.443
-0.128,0.016,-1.217,347.252,-86.000,-30.702
-0.094,-0.034,-1.179,348.947,-85.420,-30.336
-0.075,-0.089,-1.130,348.504,-83.252,-32.229
-0.072,-0.159,-1.067,346.962,-80.473,-35.832
-0.074,-0.227,-1.022,344.962,-77.756,-40.809
-0.074,-0.288,-0.979,342.824,-75.130,-45.954
-0.066,-0.317,-0.942,340.382,-72.473,-50.824
-0.068,-0.353,-0.903,337.359,-69.954,-55.099
-0.067,-0.365,-0.873,333.939,-67.863,-57.725
-0.064,-0.384,-0.847,330.794,-65.985,-58.687
-0.062,-0.409,-0.823,328.824,-64.962,-58.366
-0.062,-0.435,-0.789,328.458,-64.763,-57.038
-0.084,-0.463,-0.768,329.557,-65.756,-55.176
-0.109,-0.500,-0.715,331.053,-67.664,-54.183
-0.153,-0.563,-0.684,333.267,-71.527,-54.214
-0.179,-0.640,-0.662,336.595,-77.756,-55.450
-0.190,-0.708,-0.662,341.420,-87.176,-57.756
-0.201,-0.770,-0.634,348.962,-98.489,-60.153
-0.209,-0.821,-0.614,358.870,-110.351,-63.160
-0.204,-0.844,-0.601,371.649,-123.008,-66.931
-0.196,-0.853,-0.578,386.473,-135.924,-70.931
-0.166,-0.846,-0.563,401.221,-149.130,-75.160
-0.129,-0.825,-0.546,415.435,-161.893,-78.916
-0.090,-0.800,-0.516,426.427,-171.725,-81.023
-0.016,-0.767,-0.487,433.756,-178.336,-82.015
0.029,-0.753,-0.453,436.885,-182.427,-81.863
0.079,-0.723,-0.425,435.557,-183.786,-80.733
0.110,-0.718,-0.394,430.718,-183.450,-79.176
0.141,-0.710,-0.365,422.626,-181.527,-76.885
0.147,-0.710,-0.343,411.908,-178.840,-74.214
0.148,-0.728,-0.313,399.069,-174.733,-72.046
0.149,-0.751,-0.310,384.031,-170.092,-70.427
0.152,-0.784,-0.304,367.924,-165.084,-69.420
0.147,-0.814,-0.309,352.076,-159.878,-69.374
0.153,-0.847,-0.320,336.305,-153.954,-69.832
0.162,-0.886,-0.312,321.328,-148.061,-71.099

-0.917,1.231,-0.879,-398.855,39.557,30.489
-0.952,1.247,-0.885,-398.687,38.931,31.145
-0.983,1.269,-0.889,-398.580,38.458,31.847
-1.016,1.293,-0.891,-398.397,37.878,32.702
-1.094,1.333,-0.912,-397.359,34.840,35.710
-1.208,1.382,-0.922,-396.321,30.733,40.397
-1.336,1.449,-0.933,-395.954,25.603,45.908
-1.462,1.499,-0.924,-396.550,19.649,52.214
-1.535,1.519,-0.921,-397.557,13.511,59.985
-1.620,1.549,-0.913,-398.992,5.802,69.893
-1.708,1.561,-0.903,-401.557,-2.824,81.221
-1.793,1.569,-0.886,-404.183,-11.160,93.863
-1.891,1.557,-0.888,-407.038,-19.542,109.221
-1.983,1.533,-0.907,-410.687,-28.519,124.840
-2.000,1.502,-0.893,-415.130,-36.641,139.053
-2.000,1.453,-0.935,-421.527,-44.366,152.870
-2.000,1.401,-1.016,-429.817,-49.466,164.962
-2.000,1.320,-1.134,-439.511,-51.145,177.115
-2.000,1.198,-1.263,-450.351,-50.595,188.427
-2.000,1.106,-1.370,-462.947,-50.611,198.153
-1.926,1.016,-1.505,-476.504,-49.954,205.130
-1.819,0.928,-1.704,-489.221,-49.176,210.763
-1.698,0.803,-1.936,-500.076,-48.901,215.115
-1.591,0.627,-2.000,-500.275,-50.550,218.962
-1.523,0.415,-2.000,-500.275,-56.275,221.313
-1.479,0.141,-2.000,-494.168,-65.405,222.183
-1.478,-0.140,-2.000,-465.374,-77.557,220.763
-1.477,-0.416,-2.000,-411.023,-91.084,216.260
-1.457,-0.531,-2.000,-333.237,-100.473,205.420
-1.382,-0.735,-2.000,-224.107,-100.977,181.069
-1.262,-1.010,-2.000,-92.748,-98.580,152.763
-1.213,-1.185,-2.000,46.550,-95.298,120.275
-1.206,-1.254,-1.864,181.664,-99.863,84.214
-1.257,-1.023,-1.686,302.840,-108.840,40.336
-1.310,-0.792,-1.491,405.496,-125.863,-10.244
-1.375,-0.558,-1.272,486.046,-150.290,-64.321
-1.359,-0.324,-1.116,500.260,-169.053,-110.748
-1.336,-0.031,-0.951,500.260,-184.397,-153.527
-1.269,0.288,-0.833,500.260,-192.076,-189.893
-1.134,0.606,-0.833,500.260,-192.763,-218.794
-0.990,0.898,-0.812,500.260,-187.237,-238.992
-0.821,1.074,-0.846,500.260,-176.198,-248.565
-0.599,1.379,-0.951,500.260,-159.527,-247.298
-0.429,1.571,-1.031,500.260,-134.656,-235.847
-0.284,1.738,-1.070,500.260,-100.046,-216.229
-0.162,1.783,-1.146,496.992,-68.183,-191.573
-0.071,1.754,-1.173,452.916,-39.282,-164.580
0.001,1.671,-1.189,406.489,-15.389,-136.702
0.058,1.598,-1.120,359.466,5.298,-111.023
0.081,1.559,-1.043,313.466,25.191,-89.771
0.069,1.505,-0.948,269.160,40.977,-72.443
0.016,1.414,-0.874,229.176,50.412,-60.733
-0.059,1.292,-0.810,197.038,54.397,-53.496
-0.107,1.157,-0.786,171.908,53.405,-48.519
-0.212,0.954,-0.794,158.595,42.595,-44.550
-0.281,0.760,-0.815,155.573,24.855,-39.710
-0.337,0.634,-0.816,161.237,5.237,-33.939
-0.354,0.505,-0.813,173.557,-9.786,-27.527
-0.385,0.405,-0.811,193.191,-25.450,-19.191
-0.419,0.267,-0.863,218.412,-42.290,-9.756
-0.460,0.140,-0.907,246.336,-58.962,-0.809
-0.512,0.015,-0.942,277.344,-74.687,8.260
-0.558,-0.075,-0.979,307.847,-91.008,14.931
-0.596,-0.123,-1.015,336.885,-108.977,18.137
-0.614,-0.172,-1.031,363.832,-130.412,17.038
-0.655,-0.209,-1.015,386.000,-147.603,10.870
-0.588,-0.266,-1.059,405.130,-162.626,2.656
-0.531,-0.316,-1.019,418.351,-171.344,-4.260
-0.526,-0.383,-1.038,426.305,-176.473,-12.687
-0.493,-0.420,-1.024,429.863,-177.878,-21.634
-0.460,-0.456,-0.976,428.809,-173.679,-30.779
-0.449,-0.480,-0.955,423.786,-165.786,-38.626
-0.453,-0.513,-0.931,417.191,-156.580,-45.038
-0.461,-0.534,-0.898,409.038,-146.794,-50.137
-0.481,-0.555,-0.875,401.115,-137.817,-54.275
-0.491,-0.573,-0.837,392.962,-130.611,-58.122
-0.486,-0.596,-0.801,385.282,-127.130,-61.145
-0.478,-0.600,-0.747,377.298,-123.618,-63.527
-0.469,-0.613,-0.722,370.107,-122.794,-65.313
-0.449,-0.627,-0.659,365.740,-125.389,-66.595
-0.415,-0.648,-0.599,364.244,-130.183,-67.649
-0.392,-0.675,-0.548,366.550,-136.168,-68.580
-0.379,-0.710,-0.494,371.634,-143.679,-68.214
-0.384,-0.753,-0.428,378.916,-154.061,-67.588
-0.412,-0.813,-0.390,386.336,-166.595,-66.901
-0.436,-0.857,-0.355,394.458,-182.275,-67.145
-0.415,-0.898,-0.345,401.267,-199.573,-68.366
-0.377,-0.909,-0.357,406.534,-217.710,-69.618
-0.325,-0.896,-0.365,409.466,-233.221,-70.947
-0.257,-0.879,-0.385,409.450,-243.237,-72.244
-0.177,-0.848,-0.411,406.519,-248.565,-74.229
-0.100,-0.813,-0.436,400.702,-248.076,-75.893
-0.035,-0.775,-0.453,391.817,-242.061,-77.420
0.025,-0.760,-0.468,379.405,-229.252,-78.244
0.080,-0.750,-0.466,364.107,-210.870,-78.351
0.109,-0.758,-0.443,345.924,-190.656,-79.069
0.150,-0.779,-0.427,324.046,-169.710,-80.702
0.200,-0.793,-0.392,300.076,-148.092,-83.160
0.232,-0.821,-0.344,274.489,-125.588,-85.847
0.227,-0.849,-0.274,249.130,-103.191,-88.260

-1.118,1.203,-0.721,-289.160,-8.092,10.260
-1.144,1.225,-0.732,-288.550,-8.473,11.298
-1.175,1.252,-0.746,-288.076,-8.748,12.275
-1.175,1.252,-0.746,-287.649,-8.931,13.206
-1.243,1.308,-0.763,-286.947,-10.275,17.847
-1.387,1.354,-0.748,-288.672,-12.489,25.115
-1.522,1.372,-0.757,-291.817,-14.794,31.908
-1.638,1.378,-0.770,-296.427,-17.710,39.802
-1.717,1.356,-0.790,-301.588,-20.672,49.160
-1.751,1.311,-0.802,-306.977,-23.237,59.344
-1.798,1.244,-0.825,-312.534,-25.679,70.901
-1.795,1.201,-0.860,-317.786,-28.275,83.450
-1.839,1.119,-0.864,-323.481,-33.069,95.237
-1.845,1.027,-0.913,-328.931,-39.023,106.763
-1.829,0.910,-0.981,-333.679,-45.191,117.237
-1.796,0.778,-1.059,-337.634,-51.069,127.588
-1.749,0.650,-1.128,-340.840,-56.656,135.588
-1.694,0.538,-1.220,-343.008,-60.763,141.084
-1.633,0.429,-1.343,-344.092,-63.038,143.954
-1.577,0.281,-1.475,-342.412,-62.046,144.443
-1.517,0.142,-1.601,-337.237,-59.221,142.458
-1.455,0.016,-1.689,-327.176,-55.008,137.405
-1.399,-0.104,-1.747,-311.191,-49.053,129.160
-1.368,-0.197,-1.832,-288.366,-41.817,117.160
-1.338,-0.288,-1.892,-257.817,-33.023,102.015
-1.312,-0.357,-1.919,-222.061,-23.710,85.221
-1.293,-0.433,-1.924,-181.344,-14.809,66.351
-1.277,-0.455,-1.927,-136.000,-8.397,45.649
-1.251,-0.435,-1.893,-87.740,-4.885,23.450
-1.209,-0.377,-1.848,-36.076,-3.344,0.489
-1.144,-0.292,-1.776,16.275,-3.649,-21.618
-1.083,-0.181,-1.644,69.115,-6.992,-43.954
-1.003,-0.064,-1.537,121.420,-10.931,-65.374
-0.909,0.131,-1.410,169.908,-13.725,-83.832
-0.834,0.300,-1.297,210.183,-15.985,-98.107
-0.745,0.475,-1.213,242.443,-17.450,-110.122
-0.608,0.653,-1.123,266.504,-18.641,-118.702
-0.479,0.808,-1.017,281.771,-19.802,-124.382
-0.367,0.946,-0.946,288.763,-19.893,-127.023
-0.238,1.090,-0.873,288.198,-20.305,-126.962
-0.109,1.219,-0.819,281.282,-19.023,-123.176
-0.001,1.278,-0.815,268.641,-17.740,-115.969
0.103,1.355,-0.780,251.069,-14.947,-104.290
0.159,1.376,-0.762,230.076,-10.824,-89.435
0.181,1.376,-0.744,208.977,-8.168,-73.298
0.169,1.352,-0.760,188.031,-6.000,-55.756
0.138,1.297,-0.761,168.855,-6.137,-37.634
0.080,1.184,-0.808,153.618,-9.359,-19.863
-0.009,1.043,-0.842,143.878,-13.634,-4.229
-0.066,0.948,-0.855,139.023,-18.244,10.534
-0.156,0.808,-0.864,139.527,-24.336,23.344
-0.253,0.707,-0.915,144.779,-32.473,33.084
-0.357,0.609,-0.950,153.237,-41.832,39.618
-0.442,0.515,-0.975,164.015,-52.153,42.962
-0.501,0.404,-0.999,175.634,-61.527,43.710
-0.538,0.336,-1.007,187.939,-70.809,42.198
-0.568,0.260,-1.021,199.191,-77.924,38.672
-0.579,0.209,-1.046,209.832,-82.962,33.802
-0.585,0.178,-1.058,218.489,-85.908,28.000
-0.594,0.168,-1.076,225.237,-86.595,22.198
-0.597,0.145,-1.099,229.771,-85.893,17.160
-0.609,0.128,-1.126,233.191,-84.076,12.641
-0.633,0.117,-1.142,235.053,-82.519,9.053
-0.664,0.100,-1.192,236.641,-81.130,6.412
-0.695,0.075,-1.214,237.786,-79.084,3.878
-0.714,0.054,-1.209,238.122,-76.626,0.916
-0.749,0.022,-1.211,238.031,-73.450,-2.229
-0.757,-0.011,-1.225,237.573,-69.496,-5.832
-0.739,-0.038,-1.216,237.450,-64.275,-10.229
-0.706,-0.069,-1.204,237.832,-58.489,-14.397
-0.683,-0.079,-1.171,239.069,-51.359,-18.534
-0.656,-0.095,-1.137,241.130,-43.435,-22.107
-0.649,-0.105,-1.096,243.420,-35.420,-25.786
-0.645,-0.113,-1.070,245.954,-28.260,-28.733
-0.648,-0.125,-1.037,248.183,-22.458,-30.702
-0.640,-0.133,-1.019,250.931,-18.382,-31.435
-0.642,-0.159,-0.992,253.496,-16.137,-30.779
-0.642,-0.177,-0.960,256.275,-16.061,-29.664
-0.648,-0.200,-0.930,258.748,-18.336,-29.008
-0.651,-0.238,-0.919,261.313,-23.466,-29.725
-0.666,-0.268,-0.922,264.947,-31.985,-32.473
-0.663,-0.311,-0.910,269.863,-44.244,-37.710
-0.643,-0.352,-0.894,276.901,-58.076,-44.168
-0.600,-0.399,-0.882,286.687,-70.779,-51.252
-0.539,-0.436,-0.849,298.214,-81.435,-57.130
-0.480,-0.461,-0.834,311.160,-89.756,-61.603
-0.414,-0.477,-0.809,325.420,-96.519,-64.748
-0.355,-0.479,-0.784,338.870,-102.534,-66.641
-0.326,-0.465,-0.736,351.099,-108.183,-67.527
-0.315,-0.464,-0.698,360.687,-114.366,-67.527
-0.296,-0.466,-0.690,367.053,-121.344,-66.580
-0.274,-0.436,-0.687,370.351,-126.977,-64.992
-0.240,-0.414,-0.669,369.527,-132.748,-63.679
-0.192,-0.415,-0.665,364.901,-137.328,-62.122
-0.137,-0.419,-0.658,356.687,-138.183,-60.885
-0.082,-0.443,-0.646,346.427,-136.504,-59.084
-0.047,-0.461,-0.634,335.389,-129.969,-56.855
-0.032,-0.498,-0.621,324.687,-124.672,-54.336
-0.028,-0.532,-0.608,315.313,-116.977,-51.115
-0.029,-0.579,-0.606,307.908,-113.084,-48.870

-1.031,1.267,-0.717,-300.412,84.031,8.046
-1.065,1.290,-0.704,-301.588,84.626,8.305
-1.095,1.309,-0.708,-302.855,85.008,8.580
-1.113,1.323,-0.714,-304.061,85.313,8.870
-1.169,1.349,-0.696,-309.023,85.664,10.122
-1.278,1.404,-0.711,-318.748,86.122,13.298
-1.385,1.487,-0.741,-329.130,82.504,17.832
-1.452,1.547,-0.760,-340.870,76.260,23.527
-1.528,1.608,-0.760,-352.992,70.168,31.053
-1.579,1.644,-0.773,-366.550,63.298,40.550
-1.636,1.650,-0.777,-380.015,55.115,53.267
-1.699,1.632,-0.797,-393.924,45.221,69.450
-1.718,1.610,-0.818,-407.405,33.115,87.573
-1.754,1.579,-0.888,-419.954,18.809,108.137
-1.792,1.517,-0.984,-431.023,5.191,128.427
-1.790,1.423,-1.110,-439.771,-6.229,146.718
-1.761,1.306,-1.242,-445.634,-16.489,164.611
-1.710,1.146,-1.375,-448.290,-26.901,178.519
-1.630,1.009,-1.524,-447.969,-36.092,190.473
-1.576,0.861,-1.661,-443.115,-42.458,200.855
-1.498,0.712,-1.790,-432.275,-45.969,209.053
-1.457,0.537,-1.914,-414.824,-47.893,215.618
-1.441,0.344,-2.000,-390.519,-51.084,218.321
-1.451,0.134,-2.000,-358.656,-58.137,217.069
-1.482,-0.086,-2.000,-317.664,-68.672,211.176
-1.495,-0.308,-2.000,-266.122,-80.962,199.267
-1.494,-0.497,-2.000,-200.290,-93.267,179.008
-1.441,-0.641,-2.000,-122.122,-101.618,150.397
-1.360,-0.580,-2.000,-35.649,-100.000,111.618
-1.263,-0.767,-2.000,55.985,-102.305,68.504
-1.167,-0.798,-1.853,148.885,-102.122,23.130
-1.053,-0.647,-1.663,233.237,-99.954,-21.420
-1.004,-0.419,-1.442,308.641,-100.504,-64.412
-1.012,-0.147,-1.309,369.603,-102.885,-105.115
-0.990,0.108,-1.232,414.992,-104.718,-138.382
-0.926,0.334,-1.079,445.725,-105.282,-163.160
-0.812,0.580,-0.969,461.679,-104.305,-181.099
-0.650,0.876,-0.902,466.809,-101.908,-191.771
-0.503,1.072,-0.846,460.427,-98.809,-196.504
-0.377,1.225,-0.849,444.336,-94.580,-195.420
-0.242,1.308,-0.855,420.840,-89.099,-189.130
-0.143,1.404,-0.865,390.031,-77.496,-177.115
-0.070,1.447,-0.865,355.450,-60.061,-158.137
0.030,1.449,-0.919,319.099,-47.435,-135.618
0.066,1.442,-0.964,283.695,-37.557,-113.374
0.100,1.428,-0.941,247.924,-27.588,-91.160
0.083,1.371,-0.929,218.275,-19.023,-71.237
0.032,1.253,-0.933,194.168,-12.977,-52.336
-0.054,1.095,-0.947,178.855,-12.443,-35.817
-0.146,0.938,-0.957,171.160,-15.679,-21.191
-0.218,0.805,-0.966,171.695,-21.344,-8.626
-0.282,0.713,-0.964,178.824,-30.336,0.473
-0.361,0.624,-1.004,192.183,-42.290,6.748
-0.427,0.534,-1.023,209.237,-57.481,10.519
-0.495,0.446,-1.050,230.427,-73.252,12.382
-0.527,0.390,-1.055,253.588,-88.931,13.053
-0.557,0.315,-1.077,278.443,-103.649,11.924
-0.553,0.256,-1.092,302.458,-117.328,10.107
-0.544,0.204,-1.115,326.641,-130.916,7.038
-0.529,0.154,-1.134,347.237,-141.374,3.237
-0.528,0.114,-1.154,366.321,-152.214,-1.832
-0.510,0.091,-1.172,382.412,-160.534,-7.084
-0.505,0.049,-1.195,395.863,-166.107,-11.969
-0.501,0.008,-1.188,407.069,-168.962,-15.939
-0.497,-0.046,-1.197,414.443,-169.466,-18.397
-0.483,-0.096,-1.181,420.122,-168.458,-20.031
-0.480,-0.139,-1.162,423.756,-168.489,-20.916
-0.487,-0.184,-1.123,425.053,-169.267,-21.511
-0.494,-0.221,-1.066,423.557,-171.313,-23.160
-0.504,-0.249,-1.043,420.458,-174.107,-25.573
-0.523,-0.292,-1.010,417.252,-177.878,-28.214
-0.505,-0.354,-0.996,414.870,-183.252,-30.824
-0.489,-0.423,-0.928,412.565,-189.802,-32.519
-0.476,-0.473,-0.919,412.061,-196.672,-34.275
-0.456,-0.502,-0.886,413.802,-205.023,-35.893
-0.426,-0.545,-0.839,416.580,-211.847,-37.267
-0.401,-0.586,-0.791,420.794,-218.076,-38.275
-0.393,-0.629,-0.721,425.252,-224.687,-39.069
-0.384,-0.685,-0.681,429.618,-231.099,-39.344
-0.393,-0.715,-0.632,433.435,-238.168,-40.382
-0.391,-0.740,-0.616,436.076,-244.458,-41.832
-0.363,-0.759,-0.602,436.672,-250.550,-43.786
-0.352,-0.776,-0.588,434.870,-254.824,-46.763
-0.330,-0.785,-0.582,430.809,-257.221,-50.641
-0.333,-0.803,-0.545,423.389,-257.084,-55.481
-0.324,-0.844,-0.515,412.916,-252.992,-59.939
-0.326,-0.867,-0.500,398.885,-245.924,-64.779
-0.325,-0.912,-0.476,382.565,-238.580,-70.061
-0.313,-0.936,-0.446,363.939,-229.817,-76.092
-0.287,-0.963,-0.444,345.405,-220.947,-83.008
-0.252,-0.963,-0.416,329.313,-212.763,-89.649
-0.219,-0.968,-0.382,316.076,-205.053,-95.206
-0.197,-0.963,-0.322,305.908,-196.458,-100.656
-0.202,-0.974,-0.282,298.748,-186.885,-104.366
-0.201,-0.993,-0.238,293.908,-177.832,-106.870
-0.207,-1.005,-0.207,290.000,-169.466,-108.626
-0.201,-1.025,-0.190,286.550,-162.031,-109.985
-0.218,-1.022,-0.143,282.473,-156.763,-110.992
-0.239,-1.040,-0.077,277.649,-153.038,-112.580
-0.257,-1.049,-0.012,272.351,-151.725,-113.832

-1.206,1.273,-0.534,-300.137,112.198,-38.336
-1.242,1.301,-0.523,-300.885,109.573,-37.267
-1.268,1.322,-0.514,-301.695,106.870,-36.092
-1.319,1.346,-0.501,-302.595,104.107,-34.870
-1.410,1.412,-0.496,-306.611,89.710,-28.275
-1.531,1.515,-0.527,-311.939,68.824,-18.107
-1.661,1.602,-0.532,-317.359,47.863,-5.282
-1.789,1.643,-0.499,-324.122,30.382,10.519
-1.867,1.652,-0.509,-332.458,13.450,29.496
-1.967,1.653,-0.515,-342.824,-4.321,51.893
-2.000,1.652,-0.565,-355.588,-20.550,75.099
-2.000,1.650,-0.639,-370.885,-34.870,99.802
-2.000,1.602,-0.737,-388.611,-45.634,124.855
-2.000,1.510,-0.840,-408.443,-52.412,146.473
-2.000,1.408,-0.971,-431.466,-55.038,163.710
-2.000,1.274,-1.084,-456.046,-57.267,176.733
-2.000,1.164,-1.239,-481.420,-55.618,182.779
-2.000,1.033,-1.413,-500.275,-50.611,183.206
-2.000,0.891,-1.587,-500.275,-40.336,179.145
-1.992,0.733,-1.798,-500.275,-24.595,173.374
-1.863,0.555,-1.992,-500.275,-4.626,165.802
-1.711,0.380,-2.000,-500.275,16.901,157.053
-1.563,0.182,-2.000,-500.275,38.870,145.160
-1.439,0.047,-2.000,-500.275,63.221,132.260
-1.313,-0.151,-2.000,-500.275,88.565,118.153
-1.219,-0.364,-2.000,-500.275,111.374,102.000
-1.147,-0.505,-2.000,-485.511,132.000,80.656
-1.105,-0.651,-2.000,-403.756,141.679,56.534
-1.096,-0.784,-2.000,-303.649,138.504,32.229
-1.104,-0.857,-2.000,-189.344,122.412,10.168
-1.142,-0.777,-1.995,-68.321,97.847,-11.359
-1.178,-0.604,-1.814,49.832,65.435,-32.763
-1.174,-0.410,-1.642,160.076,27.038,-53.511
-1.177,-0.217,-1.460,268.473,-18.168,-75.985
-1.155,0.025,-1.300,361.237,-60.031,-97.542
-1.062,0.254,-1.159,442.504,-101.191,-118.031
-0.945,0.478,-1.078,500.260,-137.298,-135.893
-0.793,0.714,-1.014,500.260,-167.481,-151.099
-0.625,0.942,-0.995,500.260,-189.328,-162.855
-0.417,1.177,-0.950,500.260,-204.840,-170.397
-0.218,1.379,-0.934,500.260,-213.053,-171.679
-0.038,1.512,-0.925,500.260,-214.901,-166.260
0.201,1.652,-0.949,500.260,-207.649,-151.588
0.259,1.728,-0.924,500.260,-196.687,-135.542
0.339,1.713,-0.964,500.260,-177.893,-115.267
0.445,1.701,-0.957,500.260,-151.573,-90.214
0.504,1.675,-0.936,465.481,-118.229,-61.496
0.507,1.659,-0.964,415.298,-85.221,-34.550
0.475,1.603,-1.019,367.450,-61.573,-13.038
0.401,1.530,-1.051,321.313,-43.466,5.374
0.363,1.459,-1.051,282.595,-31.756,17.389
0.301,1.325,-0.986,249.817,-23.542,24.840
0.269,1.143,-0.875,224.916,-15.237,29.328
0.186,0.960,-0.795,210.427,-11.695,32.779
0.115,0.825,-0.822,203.817,-13.771,37.160
0.041,0.654,-0.837,206.244,-22.962,43.008
-0.014,0.528,-0.878,215.252,-36.885,49.969
-0.017,0.435,-0.858,227.924,-48.534,57.374
-0.036,0.371,-0.833,241.802,-58.473,64.656
-0.076,0.271,-0.839,254.473,-68.687,70.458
-0.154,0.160,-0.891,267.817,-86.244,73.939
-0.264,0.078,-0.953,281.481,-109.389,73.649
-0.355,-0.013,-0.999,295.176,-132.153,70.214
-0.425,-0.092,-1.033,309.924,-155.130,64.977
-0.461,-0.159,-1.075,324.901,-171.481,59.542
-0.488,-0.220,-1.118,338.290,-181.466,55.176
-0.514,-0.306,-1.125,352.656,-189.298,50.580
-0.498,-0.404,-1.154,364.336,-195.237,46.198
-0.519,-0.495,-1.161,374.733,-199.176,43.450
-0.545,-0.560,-1.179,384.519,-201.771,41.206
-0.567,-0.602,-1.179,394.809,-203.817,37.863
-0.573,-0.629,-1.155,405.740,-205.435,33.023
-0.582,-0.656,-1.117,416.000,-207.038,26.382
-0.575,-0.669,-1.068,424.702,-209.160,18.473
-0.581,-0.701,-1.013,431.313,-211.206,10.672
-0.599,-0.718,-0.958,436.137,-212.397,3.695
-0.619,-0.744,-0.919,438.443,-212.229,-2.061
-0.632,-0.785,-0.860,437.893,-211.969,-7.435
-0.639,-0.835,-0.781,434.122,-213.053,-13.069
-0.621,-0.858,-0.713,426.962,-215.527,-20.702
-0.584,-0.858,-0.656,418.015,-216.885,-29.053
-0.552,-0.851,-0.592,408.885,-216.458,-37.496
-0.506,-0.849,-0.521,399.328,-214.382,-45.542
-0.491,-0.836,-0.490,390.290,-211.756,-52.305
-0.482,-0.832,-0.479,382.427,-208.748,-57.710
-0.468,-0.823,-0.466,373.557,-206.137,-60.580
-0.483,-0.837,-0.461,365.939,-205.267,-61.679
-0.480,-0.863,-0.455,358.916,-205.237,-62.733
-0.440,-0.888,-0.422,352.489,-205.954,-62.275
-0.416,-0.919,-0.406,345.603,-206.931,-60.916
-0.392,-0.945,-0.393,338.565,-208.672,-59.969
-0.373,-0.962,-0.380,332.977,-211.695,-59.817
-0.348,-0.964,-0.389,329.557,-214.824,-61.069
-0.311,-0.980,-0.354,327.939,-216.137,-63.389
-0.282,-0.990,-0.333,327.649,-214.763,-66.565
-0.261,-1.018,-0.284,328.015,-211.237,-70.244
-0.237,-1.042,-0.248,327.206,-206.656,-75.313
-0.209,-1.053,-0.231,324.656,-202.107,-81.802
-0.172,-1.046,-0.194,320.214,-197.695,-89.145
-0.140,-1.024,-0.173,314.183,-192.198,-97.344

-1.137,1.136,-0.768,-310.611,11.557,-0.336
-1.153,1.145,-0.768,-310.015,11.282,1.160
-1.175,1.155,-0.753,-309.588,10.931,2.412
-1.188,1.154,-0.753,-309.008,10.473,4.031
-1.238,1.164,-0.734,-307.725,9.374,9.832
-1.333,1.195,-0.744,-307.069,8.412,20.244
-1.403,1.234,-0.719,-308.504,8.122,30.947
-1.502,1.258,-0.729,-312.534,8.397,41.618
-1.597,1.300,-0.732,-319.710,5.954,52.000
-1.684,1.321,-0.740,-329.282,1.420,63.221
-1.748,1.327,-0.746,-341.817,-4.031,74.473
-1.823,1.302,-0.781,-356.122,-12.168,86.061
-1.889,1.280,-0.798,-372.763,-22.290,97.969
-1.933,1.242,-0.851,-391.359,-32.855,109.786
-1.962,1.214,-0.949,-411.527,-41.985,120.992
-1.969,1.140,-1.073,-431.573,-48.107,130.733
-1.913,1.041,-1.233,-452.244,-52.260,139.160
-1.836,0.946,-1.370,-471.740,-55.893,147.023
-1.739,0.881,-1.562,-489.710,-56.489,153.450
-1.635,0.811,-1.753,-500.275,-61.527,158.809
-1.546,0.716,-1.992,-500.275,-65.908,163.527
-1.460,0.582,-2.000,-500.275,-70.947,168.458
-1.398,0.382,-2.000,-500.275,-76.473,173.924
-1.323,0.179,-2.000,-493.084,-82.031,178.305
-1.288,-0.058,-2.000,-455.817,-89.542,179.038
-1.199,-0.294,-2.000,-397.634,-97.282,173.756
-1.017,-0.507,-2.000,-314.168,-96.947,159.786
-0.857,-0.696,-2.000,-210.198,-89.252,138.641
-0.746,-0.807,-2.000,-84.489,-74.183,109.359
-0.726,-0.817,-2.000,46.611,-63.328,75.725
-0.797,-0.725,-2.000,167.313,-62.931,41.786
-0.927,-0.567,-1.936,280.382,-75.405,6.718
-1.038,-0.388,-1.746,376.000,-94.794,-27.603
-1.130,-0.185,-1.547,454.183,-115.298,-61.695
-1.115,0.035,-1.399,500.260,-132.992,-94.137
-1.054,0.266,-1.274,500.260,-147.649,-120.336
-0.978,0.510,-1.181,500.260,-156.733,-142.397
-0.883,0.760,-1.121,500.260,-159.664,-161.679
-0.765,0.965,-1.090,500.260,-158.260,-175.939
-0.634,1.139,-1.093,500.260,-153.099,-184.595
-0.499,1.289,-1.092,500.260,-144.687,-187.053
-0.371,1.392,-1.096,500.260,-130.076,-183.038
-0.258,1.475,-1.087,500.260,-112.229,-173.527
-0.184,1.530,-1.065,500.260,-89.405,-160.153
-0.127,1.541,-1.042,494.473,-64.260,-143.939
-0.085,1.521,-1.076,453.985,-41.710,-126.550
-0.073,1.486,-1.055,410.794,-24.046,-109.878
-0.040,1.434,-1.086,367.832,-11.695,-94.031
-0.015,1.348,-1.054,328.489,-3.542,-79.313
0.001,1.225,-1.008,294.214,1.924,-66.962
0.021,1.129,-0.987,267.099,4.794,-56.931
0.057,1.014,-0.969,246.855,7.115,-48.458
0.064,0.884,-0.904,234.351,7.771,-41.740
0.092,0.781,-0.878,227.084,7.985,-35.695
0.089,0.651,-0.884,225.191,6.229,-29.145
0.073,0.531,-0.920,228.611,1.588,-22.000
0.051,0.448,-0.921,236.763,-5.115,-14.092
0.016,0.355,-0.927,248.214,-13.267,-5.008
-0.026,0.265,-0.934,261.542,-22.687,4.214
-0.078,0.196,-0.948,275.313,-33.435,13.069
-0.156,0.097,-0.957,289.985,-45.511,21.023
-0.239,-0.005,-0.980,304.290,-59.710,25.954
-0.312,-0.100,-0.993,317.771,-75.084,27.267
-0.364,-0.160,-1.018,330.229,-90.107,25.023
-0.361,-0.231,-1.049,341.130,-103.145,20.244
-0.326,-0.296,-1.086,350.855,-113.115,14.519
-0.267,-0.360,-1.096,358.046,-119.450,8.840
-0.215,-0.395,-1.119,362.351,-121.160,4.336
-0.173,-0.427,-1.146,365.893,-120.382,1.679
-0.171,-0.456,-1.123,367.359,-117.328,-0.061
-0.153,-0.472,-1.123,369.099,-112.076,-0.092
-0.154,-0.495,-1.035,368.702,-105.237,2.366
-0.199,-0.504,-0.996,367.282,-99.389,4.626
-0.231,-0.515,-0.953,365.756,-96.198,6.611
-0.241,-0.539,-0.908,363.008,-94.290,8.840
-0.239,-0.554,-0.874,358.656,-92.351,10.947
-0.248,-0.576,-0.826,351.588,-89.786,12.244
-0.265,-0.606,-0.776,342.565,-86.504,12.534
-0.284,-0.665,-0.721,331.496,-82.275,10.962
-0.292,-0.718,-0.674,319.252,-78.702,7.969
-0.327,-0.767,-0.667,306.885,-76.198,2.702
-0.388,-0.820,-0.643,296.977,-76.809,-4.382
-0.422,-0.866,-0.625,289.130,-79.756,-12.565
-0.479,-0.912,-0.611,287.267,-85.237,-20.504
-0.509,-0.932,-0.553,289.466,-91.053,-27.267
-0.525,-0.934,-0.551,292.916,-95.969,-33.145
-0.520,-0.942,-0.551,296.656,-100.641,-38.290
-0.472,-0.953,-0.551,300.122,-103.847,-43.008
-0.400,-0.974,-0.528,302.519,-104.519,-47.893
-0.321,-0.993,-0.482,303.908,-103.511,-52.748
-0.267,-1.003,-0.447,304.550,-100.672,-57.542
-0.240,-1.007,-0.402,305.313,-97.679,-62.351
-0.226,-1.008,-0.376,305.710,-95.130,-66.672
-0.215,-1.002,-0.329,306.198,-94.397,-70.992
-0.220,-0.996,-0.306,305.221,-95.786,-74.626
-0.244,-0.985,-0.282,303.252,-98.702,-78.550
-0.215,-0.964,-0.264,300.107,-103.420,-80.809
-0.212,-0.934,-0.283,294.763,-110.000,-82.031
-0.196,-0.906,-0.273,288.458,-115.145,-82.763
-0.141,-0.875,-0.265,281.847,-120.076,-81.130

-1.157,1.224,-0.657,-263.649,-20.870,73.374
-1.204,1.237,-0.669,-262.489,-23.267,74.611
-1.250,1.243,-0.671,-261.267,-25.679,75.878
-1.291,1.250,-0.669,-260.260,-27.679,76.962
-1.404,1.291,-0.673,-255.466,-36.687,82.626
-1.510,1.329,-0.676,-249.939,-46.947,90.870
-1.643,1.392,-0.699,-245.069,-57.969,101.115
-1.766,1.448,-0.734,-241.221,-69.389,113.695
-1.891,1.498,-0.735,-239.740,-78.000,128.687
-2.000,1.542,-0.764,-240.748,-85.649,145.985
-2.000,1.532,-0.769,-246.031,-95.771,166.137
-2.000,1.562,-0.807,-254.916,-106.321,186.824
-2.000,1.550,-0.857,-267.786,-118.031,209.405
-2.000,1.516,-0.917,-283.374,-132.336,230.809
-2.000,1.427,-1.098,-300.015,-147.252,250.489
-2.000,1.320,-1.280,-315.542,-161.221,269.649
-2.000,1.215,-1.469,-328.275,-168.718,287.130
-2.000,1.059,-1.637,-338.351,-173.069,304.275
-2.000,0.868,-1.876,-342.122,-173.557,318.748
-2.000,0.633,-2.000,-338.382,-172.168,329.817
-2.000,0.343,-2.000,-324.092,-170.656,338.351
-2.000,0.028,-2.000,-299.679,-167.450,343.527
-2.000,-0.360,-2.000,-262.870,-168.855,342.931
-2.000,-0.717,-2.000,-214.656,-174.122,332.718
-2.000,-1.016,-2.000,-156.122,-179.802,311.664
-1.972,-1.333,-2.000,-85.756,-178.779,277.954
-1.828,-1.448,-1.791,-14.336,-173.634,235.069
-1.737,-1.494,-1.586,60.687,-164.748,181.985
-1.699,-1.449,-1.427,129.481,-155.328,123.542
-1.688,-1.340,-1.302,191.084,-148.824,59.466
-1.667,-1.164,-1.237,238.336,-147.115,-0.748
-1.578,-0.942,-1.125,274.992,-147.237,-60.183
-1.452,-0.698,-1.037,300.305,-145.359,-114.931
-1.330,-0.432,-0.988,316.015,-140.031,-162.595
-1.183,-0.144,-0.979,324.885,-127.908,-202.336
-1.018,0.189,-0.956,327.420,-112.046,-234.718
-0.865,0.511,-0.928,323.267,-86.870,-257.618
-0.697,0.775,-0.975,313.710,-57.511,-271.679
-0.507,0.998,-1.046,299.389,-26.137,-277.160
-0.331,1.185,-1.115,280.534,4.702,-275.298
-0.160,1.325,-1.163,258.992,32.824,-267.649
-0.037,1.412,-1.167,235.649,58.214,-255.084
0.048,1.451,-1.166,211.084,79.450,-239.176
0.091,1.473,-1.157,187.924,95.084,-221.756
0.126,1.459,-1.124,165.359,106.687,-201.908
0.121,1.435,-1.036,146.626,112.366,-181.191
0.103,1.394,-1.042,133.115,113.466,-159.008
0.096,1.317,-0.989,124.962,107.863,-135.954
0.079,1.228,-0.934,123.588,96.046,-112.198
0.047,1.104,-0.867,126.824,80.061,-88.947
-0.009,0.984,-0.865,133.817,59.069,-67.710
-0.050,0.849,-0.880,144.794,33.145,-48.244
-0.069,0.741,-0.893,158.473,7.603,-32.397
-0.074,0.592,-0.934,174.443,-16.198,-17.634
-0.068,0.472,-0.971,192.885,-38.565,-3.786
-0.050,0.385,-0.983,211.954,-57.573,8.809
-0.049,0.318,-1.015,229.679,-71.786,19.969
-0.062,0.275,-1.023,245.679,-82.611,30.489
-0.128,0.236,-1.058,259.267,-91.481,40.031
-0.232,0.169,-1.086,269.557,-98.168,46.672
-0.347,0.097,-1.094,277.115,-104.305,51.023
-0.480,0.021,-1.123,281.511,-110.244,51.557
-0.596,-0.060,-1.148,283.206,-114.870,48.611
-0.682,-0.146,-1.188,282.107,-117.802,42.916
-0.720,-0.236,-1.220,279.115,-118.885,35.282
-0.731,-0.314,-1.261,275.298,-117.954,26.550
-0.727,-0.373,-1.267,270.779,-114.427,16.489
-0.732,-0.435,-1.263,266.718,-108.977,5.313
-0.720,-0.469,-1.253,264.260,-100.702,-7.344
-0.714,-0.498,-1.219,263.206,-89.679,-21.405
-0.702,-0.517,-1.189,264.305,-76.794,-35.252
-0.698,-0.525,-1.143,268.061,-63.389,-47.847
-0.702,-0.546,-1.072,273.710,-51.939,-58.427
-0.727,-0.566,-0.991,280.275,-43.206,-66.534
-0.745,-0.566,-0.933,286.855,-37.710,-72.779
-0.769,-0.560,-0.909,292.947,-34.366,-77.176
-0.784,-0.547,-0.878,298.458,-32.336,-80.321
-0.778,-0.534,-0.830,302.504,-33.313,-83.267
-0.774,-0.543,-0.797,304.840,-38.458,-87.710
-0.779,-0.534,-0.780,306.122,-47.328,-93.664
-0.765,-0.513,-0.787,306.336,-58.244,-98.870
-0.736,-0.499,-0.808,306.122,-70.290,-104.229
-0.695,-0.447,-0.824,305.374,-80.626,-107.145
-0.642,-0.405,-0.858,304.687,-86.962,-107.527
-0.574,-0.408,-0.889,302.992,-89.908,-105.420
-0.492,-0.427,-0.901,300.962,-90.687,-101.038
-0.434,-0.457,-0.903,297.786,-89.679,-95.099
-0.376,-0.488,-0.896,295.130,-87.023,-89.985
-0.332,-0.502,-0.881,292.382,-82.870,-84.504
-0.311,-0.523,-0.874,289.863,-77.740,-80.198
-0.304,-0.535,-0.854,287.405,-71.435,-76.962
-0.300,-0.561,-0.829,284.992,-65.053,-75.038
-0.284,-0.591,-0.819,282.244,-59.084,-75.374
-0.261,-0.627,-0.817,278.794,-53.282,-77.481
-0.225,-0.636,-0.804,275.328,-46.198,-81.084
-0.193,-0.652,-0.767,271.771,-36.534,-85.313
-0.169,-0.667,-0.720,268.168,-24.565,-90.260
-0.161,-0.687,-0.680,265.160,-11.359,-95.130
-0.162,-0.708,-0.623,263.038,0.015,-99.191
-0.180,-0.709,-0.581,262.122,8.046,-103.084

-1.316,1.192,-0.536,-304.092,-12.366,1.313
-1.355,1.218,-0.545,-303.023,-14.595,0.534
-1.385,1.242,-0.545,-301.954,-16.534,0.092
-1.385,1.242,-0.545,-300.718,-19.023,-0.321
-1.494,1.307,-0.551,-295.756,-28.824,-0.626
-1.633,1.407,-0.520,-288.763,-40.931,2.198
-1.708,1.449,-0.584,-279.832,-54.489,10.672
-1.802,1.477,-0.600,-270.702,-69.389,23.679
-1.847,1.506,-0.640,-261.588,-82.061,40.336
-1.875,1.523,-0.677,-253.282,-90.901,60.931
-1.896,1.522,-0.696,-246.305,-94.000,84.473
-1.926,1.481,-0.726,-240.656,-92.641,110.412
-1.992,1.367,-0.725,-238.534,-90.458,134.885
-2.000,1.226,-0.743,-240.473,-85.618,156.183
-2.000,1.090,-0.756,-245.573,-79.725,171.389
-2.000,0.979,-0.770,-252.824,-75.023,180.519
-2.000,0.864,-0.796,-261.542,-71.359,184.656
-2.000,0.746,-0.835,-270.107,-67.405,185.084
-2.000,0.606,-0.906,-278.336,-64.443,181.573
-2.000,0.473,-0.996,-284.672,-63.237,178.000
-2.000,0.341,-1.067,-287.511,-60.748,174.519
-1.916,0.229,-1.123,-287.282,-58.641,170.947
-1.838,0.133,-1.203,-283.252,-55.557,167.145
-1.773,0.041,-1.284,-275.511,-52.733,163.099
-1.717,-0.055,-1.362,-263.695,-50.504,158.260
-1.676,-0.151,-1.445,-247.359,-48.702,151.939
-1.652,-0.244,-1.543,-225.664,-47.053,143.649
-1.628,-0.330,-1.577,-200.550,-45.603,132.931
-1.583,-0.440,-1.652,-170.000,-43.099,118.443
-1.565,-0.503,-1.657,-135.618,-40.656,100.366
-1.513,-0.550,-1.682,-96.031,-39.008,76.885
-1.437,-0.542,-1.679,-54.397,-38.580,50.198
-1.344,-0.522,-1.638,-9.573,-38.046,19.603
-1.190,-0.466,-1.564,37.832,-35.511,-13.435
-1.031,-0.369,-1.496,86.718,-29.802,-46.641
-0.909,-0.229,-1.363,134.198,-23.176,-78.611
-0.805,0.003,-1.265,181.221,-16.931,-106.809
-0.775,0.196,-1.177,223.344,-11.435,-128.412
-0.751,0.381,-1.122,258.397,-7.756,-144.626
-0.704,0.574,-1.069,283.954,-7.496,-156.183
-0.595,0.760,-0.983,301.679,-7.359,-162.916
-0.480,0.924,-0.893,311.405,-9.038,-166.076
-0.378,1.092,-0.815,312.885,-10.504,-164.809
-0.271,1.251,-0.768,306.397,-10.809,-159.099
-0.182,1.353,-0.741,291.725,-8.687,-147.802
-0.154,1.407,-0.746,271.588,-5.618,-131.817
-0.136,1.407,-0.803,248.198,-3.924,-111.756
-0.122,1.386,-0.867,223.496,-5.221,-87.939
-0.109,1.325,-0.885,197.863,-7.450,-63.634
-0.126,1.222,-0.918,174.947,-10.794,-40.519
-0.164,1.094,-0.920,154.565,-13.344,-19.740
-0.225,0.968,-0.959,140.183,-14.641,-4.107
-0.282,0.830,-0.982,132.000,-16.733,7.206
-0.319,0.741,-1.002,129.664,-20.107,14.137
-0.382,0.626,-1.030,133.053,-25.863,18.412
-0.439,0.499,-1.073,141.298,-31.954,19.756
-0.500,0.361,-1.116,154.351,-39.359,19.130
-0.567,0.241,-1.147,171.588,-47.313,16.366
-0.618,0.164,-1.143,192.382,-55.878,11.985
-0.682,0.084,-1.138,214.763,-63.237,5.939
-0.736,0.021,-1.157,237.878,-69.832,-0.672
-0.779,-0.035,-1.158,260.458,-74.840,-8.244
-0.823,-0.076,-1.169,282.168,-79.679,-17.389
-0.846,-0.100,-1.194,299.695,-82.733,-27.450
-0.838,-0.100,-1.179,312.611,-83.664,-36.947
-0.824,-0.090,-1.202,320.870,-82.107,-45.878
-0.817,-0.079,-1.220,324.458,-78.519,-52.580
-0.803,-0.066,-1.222,324.000,-72.000,-57.496
-0.782,-0.073,-1.182,318.885,-61.817,-61.191
-0.779,-0.085,-1.165,310.015,-50.336,-63.756
-0.772,-0.076,-1.176,298.672,-38.824,-65.237
-0.763,-0.091,-1.157,286.519,-28.397,-66.214
-0.767,-0.096,-1.135,274.000,-18.626,-66.901
-0.755,-0.106,-1.108,263.176,-10.779,-66.977
-0.746,-0.117,-1.084,255.115,-5.282,-66.550
-0.719,-0.140,-1.063,250.626,-2.122,-65.817
-0.681,-0.161,-1.019,249.298,-1.069,-64.962
-0.652,-0.189,-0.971,250.443,-0.702,-64.229
-0.617,-0.244,-0.937,253.756,-1.939,-63.405
-0.603,-0.288,-0.900,258.015,-4.443,-63.466
-0.563,-0.331,-0.878,263.542,-5.847,-62.504
-0.535,-0.373,-0.819,268.763,-7.985,-61.924
-0.508,-0.411,-0.788,273.634,-10.702,-61.221
-0.477,-0.438,-0.761,277.603,-13.786,-61.435
-0.423,-0.476,-0.751,279.679,-17.618,-62.824
-0.369,-0.501,-0.710,279.618,-22.275,-65.023
-0.321,-0.519,-0.689,278.122,-25.053,-68.198
-0.295,-0.535,-0.660,275.252,-25.710,-71.130
-0.290,-0.535,-0.630,271.985,-24.626,-73.420
-0.304,-0.557,-0.619,268.336,-22.962,-75.664
-0.324,-0.569,-0.623,264.061,-23.084,-76.992
-0.334,-0.601,-0.632,260.336,-23.893,-77.008
-0.344,-0.628,-0.660,258.336,-26.885,-75.679
-0.353,-0.659,-0.667,258.382,-31.435,-73.359
-0.333,-0.698,-0.660,260.977,-36.840,-71.160
-0.322,-0.718,-0.647,265.679,-43.328,-69.588
-0.270,-0.729,-0.632,272.565,-50.275,-69.344
-0.233,-0.741,-0.621,280.412,-57.176,-70.382
-0.199,-0.750,-0.602,290.153,-64.214,-71.847
-0.157,-0.763,-0.576,300.092,-71.053,-73.115
